Folder: phd/data_raw/brace_buckling_tests

Note: data_raw/brace_buckling_tests/reference.txt
Brace buckling data downloaded from https://resslab-hub.epfl.ch/ for the verification of the numerical model

File: brace-displacement-Black_Strut-1.csv
Displacement [mm],Force [kN]
0,0
-3.85638,-200
-2.26064,-100
-0.664894,30
0.531915,300
2.39362,665
4.12234,940
5.45213,1020
4.78723,830
0.398936,235
2.12766,550
3.45745,830
3.45745,705
2.79255,565
2.26064,395
0.797872,100
0.132979,-60
-1.8617,-305
-2.92553,-330
-2.65957,-265
-0.797872,-50
1.06383,410
3.19149,760
4.78723,990
5.31915,915
-0.930851,-195
-2.39362,-250
-4.3883,-255
-3.7234,-155
-1.72872,-35
4.25532,740
5.98404,925
3.45745,370
-0.531915,-230
-2.12766,-255
-5.31915,-210
-4.12234,-90
-0.664894,55
1.72872,345
5.18617,850
7.04787,985
4.92021,435
2.65957,-30
1.59574,-155
0,-200
-2.79255,-200
-7.31383,-170
-3.98936,-45
1.46277,185
4.25532,515
6.64894,850
6.78191,735
5.05319,375
3.59043,85
2.26064,-85
-0.265957,-210
-2.5266,-200
-4.92021,-185
-8.90957,-160
-6.51596,-75
-1.06383,70
3.98936,400
5.31915,590
7.18085,825
8.64362,955
6.38298,385
4.78723,35
3.19149,-115
0.398936,-185
-5.71809,-170
-12.8989,-120
-4.92021,10
0.265957,135
4.3883,330
7.04787,660
8.64362,855
10.2394,960
6.78191,165
5.31915,-65
2.92553,-150
1.06383,-175
-2.12766,-200
-10.9043,-140
-16.8883,-105
-5.98404,35
2.92553,225
6.51596,425
8.7766,715
10.5053,900
9.84043,555
7.97872,120
6.51596,-55
4.78723,-125
0.531915,-150
-21.8085,-95
-12.234,-5
-2.92553,100
5.18617,280
7.84574,455
10.2394,750
11.9681,900
11.1702,580
9.04255,165
7.57979,-30
6.51596,-95
3.98936,-125
-1.72872,-140
-27.2606,-90
-19.9468,-25
-4.25532,100
5.05319,245
8.1117,420
10.1064,630
12.234,850
13.4309,915
11.3032,430
9.9734,190
8.24468,-25
6.51596,-95
2.5266,-140
-24.734,-95
-38.1649,-80
-18.3511,30
-3.98936,100
5.05319,240
8.37766,380
11.3032,640
12.766,815
14.4947,915
12.367,380
10.1064,60
7.97872,-85
6.91489,-115
4.65426,-130
-39.4947,-80
-43.484,-50
-31.6489,-5
-18.75,50
-6.11702,100
5.58511,235
8.51064,335
11.0372,485
12.766,670
14.3617,835
16.3564,985
17.8191,1045
15.1596,400
13.0319,-5
11.7021,-90
9.30851,-145
5.31915,-145
-27.1277,-95
-63.8298,-70
-46.4096,-5
-31.7819,30
-16.6223,75
-2.92553,125
4.92021,180
8.51064,260
10.7713,345
13.8298,550
15.8245,745
17.2872,880
20.6117,1055
23.5372,1120
19.2819,5
19.4149,0

File: brace-displacement-Black_Strut-15.csv
Displacement [mm],Force [kN]
0,0
-2.40137,-272.624
-4.2024,-272.624
-6.00343,-252.262
0.814751,338.235
3.25901,538.462
3.25901,440.045
1.71527,182.127
0.557461,-7.91855
-2.14408,-398.19
-2.65866,-421.946
-3.55918,-340.498
-4.71698,-292.986
-6.00343,-259.05
0.686106,345.023
3.25901,538.462
3.64494,436.652
1.84391,182.127
0.686106,-1.13122
-0.857633,-174.208
-1.6295,-231.9
-2.40137,-255.656
-3.55918,-262.443
-7.41852,-231.9
-12.1784,-177.602
-2.40137,192.308
2.22985,440.045
4.80274,569.005
4.54545,341.629
2.87307,53.1674
1.58662,-92.7602
0.171527,-204.751
-0.986278,-225.113
-4.07376,-214.932
-6.64666,12.4434
-0.343053,246.606
4.15952,450.226
7.89022,633.484
6.08919,317.873
4.41681,56.5611
3.00172,-109.729
1.71527,-194.57
0.943396,-211.538
-4.2024,-197.964
-10.7633,-160.633
-11.9211,-11.3122
-4.07376,148.19
2.22985,304.299
6.34648,470.588
9.8199,613.122
9.30532,419.683
8.01887,205.882
6.73242,12.4434
5.06003,-143.665
3.64494,-197.964
-0.728988,-191.176
-8.19039,-153.846
-17.7101,-119.91
-4.97427,114.253
1.71527,226.244
6.21784,358.597
10.2058,528.281
13.2933,647.059
10.3345,165.158
8.66209,-52.0362
7.50429,-157.24
6.21784,-194.57
4.6741,-197.964
0.171527,-177.602
-6.64666,-150.452
-16.0377,-116.516
-30.3173,-85.9729
-23.1132,-11.3122
-14.494,63.3484
-5.36021,138.009
2.87307,222.851
7.76158,324.661
12.1355,477.376
16.2521,630.09
19.4683,680.995
16.6381,253.394
14.9657,22.6244
13.422,-147.059
11.8782,-204.751
9.17667,-201.357
5.70326,-174.208
-0.0857633,-147.059
-6.51801,-123.303
-14.8799,-102.941
-26.7153,-48.6425
-16.8096,29.4118
-9.21955,80.3167
3.77358,168.552
9.69125,243.213
13.2933,328.054
17.9245,480.769
21.1407,602.941
23.3276,680.995
22.1698,361.991
19.7256,5.65611
18.0532,-136.878
16.8954,-194.57
14.0652,-194.57
10.9777,-170.814
7.63293,-157.24
2.74443,-133.484
-1.50086,-119.91
-7.54717,-106.335
-27.3585,-79.1855
-40.8662,-65.6109
-44.5969,-28.2805
-32.3756,29.4118
-21.8268,63.3484
-12.693,87.1041
2.35849,144.796
8.01887,185.52
13.6792,246.606
18.0532,331.448
21.6552,436.652
25.3859,579.186
28.2161,670.814
30.6604,697.964
26.801,138.009
24.7427,-109.729
23.5849,-177.602
20.8834,-191.176
15.9949,-164.027
10.0772,-136.878
3.90223,-119.91
-2.91595,-102.941
-12.8216,-79.1855
-26.9726,-48.6425
-49.2281,-31.6742
-38.9365,5.65611
-27.4871,32.8054
-17.3242,49.7738
-6.38937,73.5294
2.87307,97.2851
7.63293,121.041
12.0069,148.19
16.1235,185.52
19.9828,243.213
24.3568,345.023
27.9588,463.801
31.0463,585.973
33.1046,664.027
35.5489,697.964
34.0051,351.81
30.6604,-72.3982
29.5026,-167.421
27.9588,-197.964
25.1286,-180.995
16.5094,-126.697
9.17667,-89.3665
1.84391,-72.3982
-13.0789,-45.2489
-60.8062,-21.4932
-51.5437,9.04977

File: brace-displacement-Elchalakani_S7C.csv
Displacement [mm],Force [kN]
0,0
5.396526,343.3223
5.310411,328.0943
-5.324763,-340.5536
-0.1148197,9.69055
5.310411,326.71
-5.410878,-340.5536
-0.02870492,11.07491
5.310411,325.3256
-5.496993,-339.1692
5.396526,344.7067
-5.023362,-337.7849
-7.52069,-452.6871
-9.673559,-484.5275
-10.96528,-492.8337
-7.865149,-285.179
-3.344124,5.537457
0.3588115,203.5015
3.932575,354.3972
6.429903,433.306
10.13284,495.6024
9.099461,423.6155
5.48264,207.6546
1.994992,6.921821
0.05740985,-110.7491
-6.831772,-415.3093
-9.587445,-473.4526
-10.96528,-483.1431
-8.037379,-285.179
-3.559411,1.384364
0.05740985,199.3485
3.717288,358.5503
6.214616,434.6904
10.26201,506.6773
9.960609,459.6089
5.8271,217.3452
2.253337,11.07491
-0.8467953,-155.0488
-6.358141,-386.2376
-8.812412,-449.9184
-10.87917,-470.6838
-7.822092,-258.8761
-2.526033,69.21821
1.951935,299.0227
5.740985,438.8435
9.745322,509.446
10.99399,519.1366
8.798059,386.2376
4.061747,109.3648
0.3157542,-99.67423
-4.076099,-305.9445
-7.047059,-413.9249
-9.415215,-460.9933
-12.38617,-477.6057
-15.52936,-470.6838
-16.04605,-454.0715
-14.23764,-330.8631
-10.27636,-98.28986
-2.91355,254.723
1.951935,394.5438
6.817419,476.2213
10.34813,519.1366
15.04138,545.4395
15.38584,494.218
12.07042,308.7132
8.539715,106.596
4.707608,-94.13677
1.478304,-228.4201
-3.946927,-375.1627
-7.606805,-429.1529
-10.92222,-445.7653
-16.13217,-436.0747
-14.2807,-321.1725
-10.01802,-71.98694
-3.085779,245.0325
0.4449263,339.1692
4.277034,409.7718
11.72596,505.293
16.20393,535.749
14.56775,427.7686
10.52035,204.8859
7.291051,33.22474
3.114484,-167.5081
0.7893854,-253.3387
-3.645525,-364.0878
-7.779034,-415.3093
-12.04172,-424.9998
-15.22796,-416.6936
-15.35713,-357.166
-11.56808,-145.3582
-7.348461,77.5244
-3.258009,233.9576
0.3157542,326.71
4.793722,408.3875
10.73564,480.3744
15.12749,517.7522
15.12749,455.4558
10.95093,217.3452
7.678567,41.53093
3.372829,-160.5863
-1.492656,-319.7881
-4.937247,-379.3158
-8.037379,-405.6187
-11.13751,-405.6187
-14.84045,-393.1594
-19.27536,-359.9347
-21.16988,-330.8631
-21.5574,-308.7132
-19.61982,-213.1921
-16.82109,-83.06186
-13.33344,62.29639
-9.113813,181.3517
-4.635845,276.8729
0.4018689,355.7816
9.702264,473.4526
17.58177,530.2115
21.5861,542.6708
16.97896,263.0292
12.37182,12.45928
9.013346,-137.0521
4.578435,-279.6416
1.607476,-340.5536
-2.095459,-383.4689
-4.377501,-384.8533
-6.53037,-354.3972
-10.14719,-305.9445
-13.20426,-282.4103
-16.47663,-257.4918
-19.5337,-238.1107
-21.42823,-224.267
-20.91154,-191.0423
-18.11281,-95.52113
-12.60146,49.83711
-8.51101,130.1302
-3.774697,206.2703
1.219959,279.6416
7.721625,375.1627
13.18991,448.534
18.44291,506.6773
21.54305,524.6741
17.23731,264.4136
12.63017,11.07491
9.185576,-138.4364
4.66455,-278.2572
1.86582,-319.7881
-1.062082,-310.0976
-4.980304,-281.0259
-8.812412,-254.723
-12.30006,-229.8045
-16.34745,-204.8859
-19.8351,-186.8892
-21.47128,-178.583
-20.48096,-143.9739
-17.16554,-56.75893
-12.77369,35.99347
-4.635845,148.127
1.435246,227.0357
8.884174,332.2474
15.12749,420.8467
20.3805,494.218
20.07909,422.2311
14.91221,117.671
11.25233,-60.91203
7.549395,-200.7328
4.965952,-271.3354
3.114484,-285.179
0.746328,-275.4885
-3.344124,-247.8012
-6.228968,-225.6514
-8.640182,-209.039
-13.33344,-189.6579
-18.15586,-166.1237
-23.8825,-149.5113
-26.72428,-141.2052
-22.37549,-48.45275
-18.02669,19.3811
-11.99866,77.5244
-2.526033,166.1237
5.267354,243.6481
11.89819,332.2474
17.45259,418.078
21.45693,477.6057
23.95426,487.2962
25.71961,474.8369
26.75299,380.7002
26.45159,346.0911
20.3805,31.84038
16.72062,-117.671
14.18023,-195.1954
12.63017,-224.267
10.73564,-238.1107
8.195256,-243.6481
5.48264,-233.9576
2.597796,-220.1139
-1.320426,-197.9641
-4.205271,-182.7361
-8.381838,-164.7393
-13.85013,-145.3582
-20.69625,-127.3615
-24.95893,-119.0553
-26.16454,-99.67423
-22.71995,-48.45275
-16.003,13.84364
-3.214951,91.36804
9.61615,173.0455
19.69158,258.8761
23.86814,282.4103
26.75299,260.2605
25.20292,177.1986
22.61948,67.83385
19.77769,-19.3811
17.06508,-71.98694
13.4052,-105.2117
7.893854,-119.0553
4.147862,-117.671
0.4879837,-114.9022
-6.616485,-112.1335
-13.20426,-101.0586
-20.95459,-99.67423
-23.71027,-52.60584
-16.99331,-4.153093

File: brace-displacement-Fell_et_al_P1-2.csv
Displacement [mm],Force [kN]
0,0
-0.6012,-125.2524
-0.1812,-46.0428
0.2396,33.2836
0.6759,117.3181
0.9893,162.3619
0.5239,76.479
0.9267,163.6984
-0.6381,-140.2685
-0.8893,-200.9766
0.6759,100.1309
0.7605,130.1586
-0.8031,-170.5626
-0.7236,-170.6514
0.8512,128.1917
-0.9237,-186.9151
0.8856,131.2908
-0.9769,-203.8981
0.9668,143.8027
-1.0347,-218.075
1.0243,156.9362
-1.0983,-232.0788
1.0899,168.5868
-1.1594,-244.1423
1.1627,180.3839
-1.2195,-256.8318
0.8674,124.946
-1.0087,-201.4561
0.9537,144.0691
-1.1288,-229.0374
1.1061,169.6568
-1.2495,-252.5738
1.2193,191.1065
-2.4662,-495.6372
-2.4623,-496.614
-2.4625,-496.8804
-2.459,-497.9904
-2.4691,-497.28
-2.4587,-497.502
-2.4613,-496.836
-2.4538,-497.1912
2.9845,498.2124
-3.1024,-636.1188
-11.7302,-525.6072
-15.2527,-421.7467
-15.2502,-419.2115
-15.2555,-418.1104
-15.2514,-417.9905
-15.2568,-417.2179
-15.256,-416.7695
-15.2517,-416.2322
-14.4302,-363.2986
-9.3904,14.3079
-9.3828,12.7592
-9.3835,11.8952
-9.3853,12.61
-9.3802,12.729
-9.3802,11.2696
-9.3825,11.9547
-9.3749,11.8357
-9.3797,11.4485
-9.3744,11.4183
-9.3772,10.9419
-9.3772,11.0907
-9.3817,10.7333
-9.3792,11.0312
-9.379,10.7035
-9.3764,10.9122
-5.1509,317.2646
2.2388,730.6464
9.9469,987.1452
13.4173,720.7452
7.11,-204.613
-0.6949,-507.5808
-9.3086,-418.3768
-13.3942,-258.7099
-5.7173,106.3868
2.0742,410.2072
9.7399,721.278
13.9906,721.8996
7.6124,-191.8924
-0.3058,-436.0124
-8.844,-387.5454
-17.4084,-331.1574
-25.9385,-289.9897
-26.7843,-237.4379
-26.7919,-237.3491
-26.7843,-236.9317
-26.7894,-236.6653
-21.734,-106.5156
-13.7721,103.1101
-5.669,264.2999
2.3983,432.3672
10.2377,662.004
18.0398,937.4172
26.2433,1044.821
22.9278,328.3735
16.0371,-394.756
7.5969,-412.0054
-0.9771,-354.0634
-9.5054,-306.9061
-18.0203,-272.5006
-26.5024,-246.4067
-26.4338,-200.173
-21.0033,-98.2661
-12.955,59.2607
-4.7579,180.7391
3.4564,289.1106
11.5842,424.1488
19.575,623.1096
27.4244,886.1796
23.2806,225.5742
16.0175,-328.298
7.5804,-345.6052
-0.9475,-312.6293
-9.4226,-281.1408
-17.9403,-253.2887
-26.4287,-226.9817
-34.9783,-186.2935
-39.4564,-142.7105
-39.4437,-141.5206
-39.4462,-141.8447
-39.4386,-141.1609
-39.4437,-141.3696
-31.6433,-46.5223
-23.4074,47.1972
-15.1127,121.0433
-6.841,189.0818
1.4443,264.9526
9.7023,363.9113
17.8206,513.1752
25.7124,739.5264
33.589,998.2896
39.3471,879.1644
32.8244,-1.5694
25.1755,-388.2025
16.6116,-356.6252
7.972,-272.2342
-0.6067,-215.007
-9.0957,-182.4485
-17.5915,-159.9288
-26.0502,-143.8116
-34.5618,-130.9756
-40.132,-107.3192
-40.132,-106.3691
-40.1345,-106.3957
-40.1295,-106.0982
-40.1295,-106.0094
-32.3164,-38.121
-24.0386,21.6361
-15.6538,65.339
-7.3223,104.3622
1.0333,147.6122
9.3596,205.4344
17.6515,297.2758
25.7734,457.9416
33.6525,706.0044
39.6469,826.5504
39.3624,786.6792
35.6489,286.1047
28.4861,-309.3215
19.9243,-286.7396
11.2972,-220.2196
2.7902,-183.4919
-5.7102,-159.9288
-14.1864,-142.6217
-22.6555,-129.6924
-31.1455,-119.4449
-39.6367,-110.7158
-48.1152,-103.8338
-56.6014,-97.9952
-60.2513,-78.7523
-60.2488,-78.6946
-60.2513,-78.5436
-60.2463,-78.4548
-60.2386,-78.6324
-60.2437,-78.5747
-57.3659,-61.6849
-48.9737,-17.5664
-40.5816,15.6483
-32.1615,40.0159
-23.7437,61.1965
-15.3137,82.4952
-6.972,105.9695
1.4448,135.2513
9.8087,176.5078
14.096,196.9451
14.0978,195.7552
14.1094,194.2944
14.112,193.3398
14.0973,192.656
14.1079,192.8336
14.11,192.656
14.0947,191.9101
22.2824,294.6828
30.3809,472.7712
34.5186,605.0388
34.5211,600.954
34.5211,599.4444
42.1513,950.9148
50.4393,1054.456
58.9178,1073.37
57.0128,594.6048
50.3174,-204.9104
42.103,-348.4334
33.3807,-248.1649
24.7487,-196.4212
16.1679,-165.945
7.6566,-145.5388
-0.8477,-131.3885
-9.2837,-120.4883
-17.7518,-111.4618
-26.2153,-104.34
-34.7116,-98.0574
-43.2105,-92.725
-51.7017,-88.1651
-60.1853,-84.5642
-60.1447,-67.821
-60.1421,-67.821
-56.073,-50.1276
-47.6682,-16.9408
-39.2582,8.0524
-30.8127,26.2537
-22.3759,41.9824
-13.9819,56.6988
-5.5623,71.6527
2.8631,87.9164
11.286,107.2793
19.7256,131.9746
28.1838,162.9569
36.6166,206.5666
44.9859,280.8611
53.5,268.62
59.6036,285.7451
59.2303,249.195
59.2303,249.6124
58.1203,144.3355
50.0888,-67.7899
41.6509,-110.2408
33.1394,-117.6556
24.6192,-118.5524
16.0846,-116.1992
7.5766,-110.2718
-0.903,-104.2512
-9.3355,-97.8176
-17.8046,-92.13
-26.2585,-87.0062
-34.7675,-82.624
-43.2486,-78.5747
-51.7423,-75.4489
-60.231,-72.1411
-68.6968,-69.1308
-74.93,-48.6979
-66.4769,-27.0094
-58.0619,-15.2132
-49.5656,-7.3486
-41.1099,-1.0333
-32.6517,4.299
-24.1836,8.9164
-15.7338,13.7125
-7.3279,17.883
1.1237,22.0535
9.5618,26.2835
18.0622,31.2882
26.5405,37.4843
35.0622,46.065
43.5813,60.8369
52.0344,97.418
60.2717,256.0193
68.2854,1.7073

File: brace-displacement-Tremblay_CHS2.csv
Displacement [mm],Force [kN]
0,0
7.889967,1504.727
6.045559,1059.121
3.740049,574.7669
1.127138,51.66444
-7.172697,-1433.688
-8.709704,-1394.94
-10.86151,-1291.611
-13.32072,-1220.572
-14.70403,-1162.45
-14.70403,-1097.869
-14.08923,-975.1663
-13.01332,-833.0891
-10.86151,-626.4314
-8.094901,-322.9028
-4.406086,77.49666
4.508553,1136.618
10.50288,1737.217
15.1139,2195.739
14.6528,1788.881
12.34729,1369.108
7.889967,542.4766
5.430757,71.03861
2.510444,-400.3994
-0.2561678,-768.5086
-3.02278,-1026.831
-4.867188,-1110.785
-7.7875,-1143.076
-7.7875,-1130.16
-11.63002,-1084.953
-15.16513,-1046.205
-12.24482,-710.3861
-5.943092,-19.37417
3.432648,1265.779
6.814063,1692.01
10.96398,2001.997
15.2676,2202.197
15.1139,1885.752
13.11579,1504.727
8.351069,619.9733
2.971546,-322.9028
-1.793174,-897.6697
-3.944984,-1039.747
-6.096793,-1078.495
-8.248602,-1065.579
-11.78372,-1039.747
-21.62056,-884.7536
-22.69646,-846.0052
-18.23914,-587.683
-13.01332,-264.7803
-7.480099,148.5353
6.352961,1349.734
9.888076,1666.178
15.4213,2105.326
18.03421,2240.945
20.80082,2299.068
23.26003,2331.358
20.33972,1498.269
17.26571,929.9599
10.04178,-290.6125
6.967763,-665.1797
4.047451,-923.5019
2.510444,-988.0824
-1.178372,-1013.915
-7.326398,-962.2502
-11.01521,-904.1277
-15.31883,-865.3794
-22.54276,-762.0505
-16.08734,-426.2316
-8.863405,71.03861
10.19548,1330.359
22.64523,2234.487
20.64712,1633.888
18.18791,1117.244
14.8065,484.3541
8.65847,-464.98
5.738158,-781.4247
3.125247,-871.8374
0.8197368,-878.2955
-6.865296,-839.5472
-18.08544,-768.5086
-37.91283,-619.9733
-32.99441,-471.438
-22.54276,-103.3289
-17.47064,77.49666
-13.32072,232.49
-7.480099,432.6897
14.4991,1504.727
24.18224,2053.662
30.17656,2324.9
33.55798,2383.022
38.4764,2395.938
34.94128,1543.475
27.87105,361.6511
23.41373,-316.4447
20.33972,-639.3475
18.49531,-787.8827
16.6509,-878.2955
13.11579,-891.2116
9.426974,-871.8374
-0.1024671,-794.3408
-7.172697,-736.2183
-16.08734,-678.0958
-23.15757,-639.3475
-31.3037,-587.683
-37.91283,-529.5605
-20.54465,-90.41277
-9.631908,200.1997
6.814063,684.5538
16.1898,994.5405
25.41184,1440.146
31.25247,1756.591
38.4764,2144.074
37.09309,1756.591
33.86538,1214.114
29.71546,471.438
24.95074,-238.948
22.49153,-477.8961
20.64712,-574.7669
18.18791,-678.0958
15.2676,-716.8441
8.197368,-723.3022
1.434539,-703.928
-14.70403,-632.8894
-30.3815,-555.3927
-42.06275,-490.8122
-45.13676,-432.6897
-56.97171,-355.193
-50.36258,-251.8642
-38.98873,-71.03861
-21.46686,193.7417
-9.785609,368.1091
1.58824,555.3927
13.26949,858.9213
23.26003,1214.114
30.94507,1582.224
39.5523,2027.829
44.47072,2292.61
47.39104,2363.648
50.46505,2402.397
57.22788,2428.229
56.45938,2240.945
51.38725,1233.489
48.46694,723.3022
44.31702,122.703
41.70411,-251.8642
39.0912,-568.3089
37.70789,-684.5538
36.47829,-749.1344
34.78758,-781.4247
30.48396,-787.8827
25.87294,-774.9666
20.18602,-729.7602
12.80839,-607.0572
9.119572,-542.4766
2.203043,-464.98
-2.407977,-419.7736
-12.09112,-368.1091
-20.69836,-342.2769
-32.84071,-297.0705
-41.44794,-258.3222
-57.12541,-251.8642
-47.13487,-122.703
-28.07599,51.66444
-19.00765,116.245
4.047451,303.5286
15.8824,452.0639
26.64145,684.5538
36.17089,1013.915
43.39482,1427.23
49.69655,1801.797
57.68898,2273.235
54.00016,1537.017
50.61875,942.8761
47.23734,393.9414
44.16332,-83.95472
42.01151,-368.1091
40.47451,-484.3541
38.0153,-607.0572
36.17089,-658.7216
34.48018,-678.0958
31.55987,-645.8055
28.79326,-587.683
26.94885,-574.7669
24.79704,-529.5605
20.95452,-503.7283
15.8824,-445.6058
10.96398,-400.3994
4.201151,-368.1091
-2.869079,-329.3608
-5.328289,-309.9866
-11.47632,-290.6125
-21.92796,-264.7803
-14.70403,-129.1611
-2.407977,51.66444
11.73248,213.1158
19.57122,322.9028
23.41373,381.0253
21.10822,219.5739
17.26571,45.20639
14.19169,-71.03861
9.426974,-167.9094
4.662253,-226.0319
-1.485773,-238.948
-9.939309,-251.8642
-28.84449,-238.948
-48.82558,-213.1158
-59.27722,-200.1997
-75.87689,-167.9094
-60.19942,-51.66444
-46.98117,12.91611
-33.30181,71.03861
-20.69836,116.245
2.971546,245.4061
11.73248,316.4447
20.80082,393.9414
28.02475,471.438
34.48018,561.8508
40.78191,723.3022
45.54663,917.0438
47.54474,548.9347
49.85025,581.225
52.61686,639.3475
55.53717,755.5925
57.07418,839.5472
58.45748,897.6697
59.84079,923.5019
61.3778,904.1277
62.4537,865.3794
63.99071,800.7988
65.68141,716.8441
67.37212,471.438

File: brace-displacement-Zayas_Strut2.csv
Displacement [mm],Force [kN]
0, 0
-0.0932,-5.18
-0.33,-47.3
-0.549,-82.8
-0.787,-123
-1.02,-156
-1.3,-180
-1.59,-189
-1.66,-143
-1.28,-72.5
-0.969,-20.7
-0.659,31.1
-0.349,85
-0.075,134
0.18,163
0.436,186
0.746,194
1.64,160
1.35,101
1.24,79.8
0.965,26.6
0.728,-20
0.564,-46.6
0.253,-91.7
0.0162,-119
-0.257,-143
-0.568,-161
-0.932,-172
-1.3,-167
-1.83,-152
-2.43,-139
-2.88,-129
-3.34,-120
-3.58,-107
-3.32,-62.8
-3.03,-24.4
-2.68,14
-2.23,54.7
-1.72,87.2
-1.11,117
-0.531,139
0.107,158
0.728,174
1.4,185
2.22,191
2.99,192
3.54,190
3.15,110
2.86,58.4
2.55,5.18
2.17,-51
1.9,-82.8
1.51,-111
1.06,-128
0.6,-136
0.0709,-138
-0.568,-132
-1.5,-114
-2.14,-103
-2.67,-94.6
-3.21,-88
-4,-81.3
-4.84,-77.6
-5.57,-71
-5.11,-38.4
-4.51,-7.39
-3.94,16.3
-3.18,39.9
-1.68,70.2
0.418,112
1.8,139
3.17,167
4.05,182
5.22,187
4.72,88.7
4.23,2.22
3.92,-40.7
3.72,-62.1
3.46,-82.8
3.1,-99.8
2.63,-112
2.04,-118
1.57,-118
0.782,-112
-0.13,-103
-1.26,-93.2
-2.34,-83.5
-3.32,-74.7
-4.38,-69.5
-5.55,-63.6
-6.62,-58.4
-7.03,-42.9
-6.33,-17
-5.51,7.39
-4.33,28.1
-2.81,48.1
-1.66,59.1
-0.44,73.9
0.399,83.5
1.24,96.1
2.3,114
3.52,134
4.34,148
5.14,163
6.11,178
6.68,186
6.97,174
6.82,135
6.6,92.4
6.33,54.7
5.96,11.1
5.64,-27.4
5.33,-57.7
4.98,-78.4
4.6,-90.2
4.08,-97.6
3.37,-101
2.53,-99.1
1.88,-96.1
1,-89.5
0.253,-79.1
-0.349,-70.2
-1.17,-60.6
-2.19,-52.5
-3.27,-46.6
-4.29,-40.7
-5.24,-37.7
-6.28,-34
-8.6,-20.7
-7.46,-3.7
-5.75,11.1
-3.61,22.2
-2.23,29.6
-1.43,34.7
-0.495,42.9
0.381,51
1.24,60.6
2.17,73.9
3.14,89.5
4.52,115
5.76,139
6.77,159
7.62,176
8.41,191
8.66,166
8.55,138
8.3,94.6
8.04,56.9
7.73,11.8
7.85,5.89
7.4,-47.1
7.07,-68.7
6.73,-82.4
6.39,-92.2
5.86,-96.8
5.18,-93.5
4.53,-85
3.66,-74.6
2.6,-64.8
1.77,-58.2
0.494,-49.1
-0.539,-43.8
-2.11,-38.6
-4.35,-34
-7.34,-28.8
-9.04,-24.2
-8.1,-7.2
-6.71,3.92
-5.27,11.1
-3.39,19
-1.86,24.9
-0.337,30.7
1.14,37.9
2.22,45.1
2.96,51.7
3.81,60.2
4.55,70
5.41,85
6.17,101
7.05,122
8.01,147
8.73,167
8.91,158
8.75,122
8.39,66.1
7.99,19.6
7.2,-49.1
6.8,-64.8
6.35,-72.6
5.9,-75.2
5.32,-72.6
3.99,-63.5
3.05,-56.9
2,-49.7
0.942,-43.2
-0.202,-38.6
-1.64,-34
-3.95,-29.4
-6.66,-24.9
-9.18,-20.3
-8.12,-6.54
-6.71,3.27
-5.25,11.8
-2.67,20.9
-0.18,28.1
1.26,34
2.56,40.6
3.66,49.1
4.8,60.8
5.9,75.9
6.71,91.6
7.56,111
8.23,129
8.84,145
8.62,98.8
8.19,43.2
7.72,-11.1
7.34,-41.9
6.91,-54.9
6.37,-62.8
5.52,-64.8
4.71,-61.5
3.75,-54.9
2.56,-46.4
1.5,-40.6
0.494,-36
-0.426,-32.7
-1.86,-29.4
-3.55,-26.2
-5.59,-22.9
-8.06,-19
-8.53,-10.5
-7.02,1.31
-5.47,9.81
-3.46,15
-1.75,19
0.0673,24.2
2.38,30.1
3.97,35.3
5.43,43.2
6.57,54.3
7.7,67.4
8.71,81.8
8.62,52.3
8.46,32.1
8.17,11.1
7.9,-3.27
7.49,-17
6.91,-26.2
6.13,-30.1
0.0673,-25.5
-2.18,-23.5
-5.41,-20.9
-8.86,-18.3
-7.79,-8.5
-6.51,-1.31
-5.12,3.27
-3.48,5.23
-1.86,7.85
0.381,11.1
3.88,17
7.9,22.9
8.73,22.2
8.8,18.3
8.55,9.16
8.28,0.654

File: brace-displacement-Zayas_Strut3.csv
Displacement [mm],Force [kN]
-0.046,0.444
-0.414,-48.3
-0.873,-107
-1.2,-152
-1.61,-205
-1.85,-232
-1.67,-194
-1.23,-133
-0.828,-77.3
-0.107,16
0.582,91.6
1.26,167
1.78,221
1.67,196
1.03,121
0.49,60.5
0.0153,6.66
-0.383,-48.3
-0.873,-109
-1.2,-153
-1.59,-206
-1.93,-240
-2.07,-254
-2.24,-259
-2.64,-244
-3.56,-203
-3.11,-155
-1.95,-20.3
-1.36,37.7
-0.797,91.6
-0.261,143
0.276,194
0.873,243
1.3,273
1.87,306
2.73,344
3.37,365
3.37,345
2.42,232
1.81,157
1.26,90.6
0.751,30.5
0.245,-31.7
-0.276,-86.6
-0.736,-129
-1.13,-162
-1.5,-182
-1.93,-194
-2.39,-201
-3,-197
-3.89,-186
-4.93,-168
-4.83,-147
-4,-89.7
-2.96,-19.2
-1.73,64.7
-0.751,137
-0.0306,189
0.659,238
1.49,286
2.19,322
3,356
3.6,375
4.26,384
3.62,297
2.79,189
1.96,83.3
1.59,36.7
1.03,-40
0.582,-101
0.306,-136
0.0306,-165
-0.337,-184
-0.782,-192
-1.35,-190
-1.76,-184
-2.88,-162
-4.21,-128
-5.23,-97
-5.78,-75.2
-5.19,-47.2
-3.8,5.63
-2.67,47.1
-1.99,74
-1.41,98.9
-0.552,136
0.368,180
0.828,205
1.41,236
1.7,252
2.02,262
1.75,207
1.26,144
0.582,67.8
0.0919,13.9
-0.414,-32.7
-0.812,-69
-1.16,-91.8
-1.44,-101
-1.85,-100
-2.57,-89.7
-4.01,-73.1
-5.12,-62.8
-7.03,-48.3
-7.72,-43.1
-6.8,-19.2
-5.69,1.48
-5.04,10.8
-4.4,21.2
-3.33,38.8
-2.41,57.4
-1.66,76.1
-0.996,97.8
-0.368,124
0.352,160
0.828,191
1.2,213
1.5,234
1.96,261
1.24,144
0.812,96.8
0.475,59.5
0.199,27.4
-0.0401,-0.279
-0.537,-49.4
-0.853,-72.8
-1.19,-83.9
-1.89,-80.6
-2.7,-72.8
-3.43,-66.1
-4.62,-57.2
-6.61,-46
-7.78,-38.2
-6.2,-6.97
-5.48,4.18
-3.85,27.6
-2.12,56.6
-1.24,77.8
-0.695,93.4
-0.0401,107
0.456,107
1.22,97.9
1.65,74.5
1.61,47.7
1.31,28.7
0.75,8.65
-0.0627,-15.9
-0.582,-30.4
-1.19,-43.8
-1.82,-53.8
-3.4,-53.8
-5.66,-42.7
-6.72,-20.4
-5.07,-8.09
-2.66,6.41
-0.582,17.6
0.479,18.7
1.27,14.2
1.34,6.41
-0.0627,-1.39
-1.1,-3.63
-2.36,-10.3
-7.85,-22.6
-7.01,-14.8
-6.04,-6.97